groupKey.keys,groupKey.rt,taskBegin.keys,taskBegin.rt,groupCat.keys,groupCat.rt,trials.thisRepN,trials.thisTrialN,trials.thisN,trials.thisIndex,trials.ran,stimID,participantPol,ciGroup,ciType,imgSrc,ProlificID,date,expName,psychopyVersion,OS,frameRate
u,6.4088,space,6.5856,o,2.3002,0,0,0,8,1,ci09,conservative,ingroup,individual,cis/conservative - ingroup/base_idNo_420235_autoscaled.jpg,628509244930455cbb7cfd4c,2022-06-14_12h09.19.571,group_task,2020.2.10,Win32,60
,,,,o,1.4933,0,1,1,12,1,ci13,conservative,ingroup,individual,cis/conservative - ingroup/base_idNo_495549_autoscaled.jpg,628509244930455cbb7cfd4c,2022-06-14_12h09.19.571,group_task,2020.2.10,Win32,60
,,,,u,0.9529,0,2,2,35,1,ci36,conservative,outgroup,individual,cis/conservative - outgroup/base_idNo_526540_autoscaled.jpg,628509244930455cbb7cfd4c,2022-06-14_12h09.19.571,group_task,2020.2.10,Win32,60
,,,,o,1.7708,0,3,3,85,1,ci86,liberal,outgroup,individual,cis/liberal - outgroup/base_idNo_462266_autoscaled.jpg,628509244930455cbb7cfd4c,2022-06-14_12h09.19.571,group_task,2020.2.10,Win32,60
,,,,o,3.3048,0,4,4,20,1,ci21,conservative,ingroup,individual,cis/conservative - ingroup/base_idNo_746809_autoscaled.jpg,628509244930455cbb7cfd4c,2022-06-14_12h09.19.571,group_task,2020.2.10,Win32,60
,,,,o,1.3243,0,5,5,73,1,ci74,liberal,ingroup,individual,cis/liberal - ingroup/base_idNo_952099_autoscaled.jpg,628509244930455cbb7cfd4c,2022-06-14_12h09.19.571,group_task,2020.2.10,Win32,60
,,,,u,1.0554,0,6,6,79,1,ci80,liberal,outgroup,individual,cis/liberal - outgroup/base_idNo_316191_autoscaled.jpg,628509244930455cbb7cfd4c,2022-06-14_12h09.19.571,group_task,2020.2.10,Win32,60
,,,,o,1.1801,0,7,7,2,1,ci03,conservative,ingroup,individual,cis/conservative - ingroup/base_idNo_196857_autoscaled.jpg,628509244930455cbb7cfd4c,2022-06-14_12h09.19.571,group_task,2020.2.10,Win32,60
,,,,o,1.3853,0,8,8,34,1,ci35,conservative,outgroup,individual,cis/conservative - outgroup/base_idNo_426896_autoscaled.jpg,628509244930455cbb7cfd4c,2022-06-14_12h09.19.571,group_task,2020.2.10,Win32,60
,,,,o,0.8568,0,9,9,66,1,ci67,liberal,ingroup,individual,cis/liberal - ingroup/base_idNo_648338_autoscaled.jpg,628509244930455cbb7cfd4c,2022-06-14_12h09.19.571,group_task,2020.2.10,Win32,60
,,,,u,1.5273,0,10,10,54,1,ci55,liberal,ingroup,individual,cis/liberal - ingroup/base_idNo_293475_autoscaled.jpg,628509244930455cbb7cfd4c,2022-06-14_12h09.19.571,group_task,2020.2.10,Win32,60
,,,,u,2.8327,0,11,11,14,1,ci15,conservative,ingroup,individual,cis/conservative - ingroup/base_idNo_509033_autoscaled.jpg,628509244930455cbb7cfd4c,2022-06-14_12h09.19.571,group_task,2020.2.10,Win32,60
,,,,u,0.9364,0,12,12,83,1,ci84,liberal,outgroup,individual,cis/liberal - outgroup/base_idNo_383356_autoscaled.jpg,628509244930455cbb7cfd4c,2022-06-14_12h09.19.571,group_task,2020.2.10,Win32,60
,,,,o,1.2726,0,13,13,46,1,ci47,conservative,outgroup,individual,cis/conservative - outgroup/base_idNo_899909_autoscaled.jpg,628509244930455cbb7cfd4c,2022-06-14_12h09.19.571,group_task,2020.2.10,Win32,60
,,,,o,1.1825,0,14,14,37,1,ci38,conservative,outgroup,individual,cis/conservative - outgroup/base_idNo_593992_autoscaled.jpg,628509244930455cbb7cfd4c,2022-06-14_12h09.19.571,group_task,2020.2.10,Win32,60
,,,,o,1.2271,0,15,15,23,1,ci24,conservative,ingroup,individual,cis/conservative - ingroup/base_idNo_920301_autoscaled.jpg,628509244930455cbb7cfd4c,2022-06-14_12h09.19.571,group_task,2020.2.10,Win32,60
,,,,u,1.7986,0,16,16,89,1,ci90,liberal,outgroup,individual,cis/liberal - outgroup/base_idNo_535284_autoscaled.jpg,628509244930455cbb7cfd4c,2022-06-14_12h09.19.571,group_task,2020.2.10,Win32,60
,,,,o,1.5662,0,17,17,36,1,ci37,conservative,outgroup,individual,cis/conservative - outgroup/base_idNo_559539_autoscaled.jpg,628509244930455cbb7cfd4c,2022-06-14_12h09.19.571,group_task,2020.2.10,Win32,60
,,,,u,1.2436,0,18,18,0,1,ci01,conservative,ingroup,individual,cis/conservative - ingroup/base_idNo_184154_autoscaled.jpg,628509244930455cbb7cfd4c,2022-06-14_12h09.19.571,group_task,2020.2.10,Win32,60
,,,,u,0.9858,0,19,19,59,1,ci60,liberal,ingroup,individual,cis/liberal - ingroup/base_idNo_488856_autoscaled.jpg,628509244930455cbb7cfd4c,2022-06-14_12h09.19.571,group_task,2020.2.10,Win32,60
,,,,u,1.3091,0,20,20,75,1,ci76,liberal,outgroup,individual,cis/liberal - outgroup/base_idNo_119301_autoscaled.jpg,628509244930455cbb7cfd4c,2022-06-14_12h09.19.571,group_task,2020.2.10,Win32,60
,,,,u,0.902,0,21,21,21,1,ci22,conservative,ingroup,individual,cis/conservative - ingroup/base_idNo_791214_autoscaled.jpg,628509244930455cbb7cfd4c,2022-06-14_12h09.19.571,group_task,2020.2.10,Win32,60
,,,,o,1.0361,0,22,22,97,1,ci98,liberal,outgroup,individual,cis/liberal - outgroup/base_idNo_845263_autoscaled.jpg,628509244930455cbb7cfd4c,2022-06-14_12h09.19.571,group_task,2020.2.10,Win32,60
,,,,o,0.9302,0,23,23,62,1,ci63,liberal,ingroup,individual,cis/liberal - ingroup/base_idNo_574089_autoscaled.jpg,628509244930455cbb7cfd4c,2022-06-14_12h09.19.571,group_task,2020.2.10,Win32,60
,,,,o,1.6565,0,24,24,43,1,ci44,conservative,outgroup,individual,cis/conservative - outgroup/base_idNo_746324_autoscaled.jpg,628509244930455cbb7cfd4c,2022-06-14_12h09.19.571,group_task,2020.2.10,Win32,60
,,,,o,1.402,0,25,25,41,1,ci42,conservative,outgroup,individual,cis/conservative - outgroup/base_idNo_706497_autoscaled.jpg,628509244930455cbb7cfd4c,2022-06-14_12h09.19.571,group_task,2020.2.10,Win32,60
,,,,u,1.1686,0,26,26,24,1,ci25,conservative,ingroup,individual,cis/conservative - ingroup/base_idNo_986864_autoscaled.jpg,628509244930455cbb7cfd4c,2022-06-14_12h09.19.571,group_task,2020.2.10,Win32,60
,,,,o,1.999,0,27,27,47,1,ci48,conservative,outgroup,individual,cis/conservative - outgroup/base_idNo_901185_autoscaled.jpg,628509244930455cbb7cfd4c,2022-06-14_12h09.19.571,group_task,2020.2.10,Win32,60
,,,,o,1.0242,0,28,28,64,1,ci65,liberal,ingroup,individual,cis/liberal - ingroup/base_idNo_627839_autoscaled.jpg,628509244930455cbb7cfd4c,2022-06-14_12h09.19.571,group_task,2020.2.10,Win32,60
,,,,u,1.9215,0,29,29,105,1,ci106,conservative,ingroup,group,cis/group level cis/base_group_conservativeIngroup_autoscaled.jpg,628509244930455cbb7cfd4c,2022-06-14_12h09.19.571,group_task,2020.2.10,Win32,60
,,,,o,1.6188,0,30,30,98,1,ci99,liberal,outgroup,individual,cis/liberal - outgroup/base_idNo_868580_autoscaled.jpg,628509244930455cbb7cfd4c,2022-06-14_12h09.19.571,group_task,2020.2.10,Win32,60
,,,,o,3.9968,0,31,31,101,1,ci102,liberal,outgroup,individual,cis/liberal - outgroup/base_idNo_924521_autoscaled.jpg,628509244930455cbb7cfd4c,2022-06-14_12h09.19.571,group_task,2020.2.10,Win32,60
,,,,o,2.0891,0,32,32,53,1,ci54,liberal,ingroup,individual,cis/liberal - ingroup/base_idNo_283998_autoscaled.jpg,628509244930455cbb7cfd4c,2022-06-14_12h09.19.571,group_task,2020.2.10,Win32,60
,,,,o,2.5852,0,33,33,50,1,ci51,conservative,outgroup,individual,cis/conservative - outgroup/base_idNo_938082_autoscaled.jpg,628509244930455cbb7cfd4c,2022-06-14_12h09.19.571,group_task,2020.2.10,Win32,60
,,,,u,1.8065,0,34,34,72,1,ci73,liberal,ingroup,individual,cis/liberal - ingroup/base_idNo_929772_autoscaled.jpg,628509244930455cbb7cfd4c,2022-06-14_12h09.19.571,group_task,2020.2.10,Win32,60
,,,,u,0.6218,0,35,35,7,1,ci08,conservative,ingroup,individual,cis/conservative - ingroup/base_idNo_384630_autoscaled.jpg,628509244930455cbb7cfd4c,2022-06-14_12h09.19.571,group_task,2020.2.10,Win32,60
,,,,u,0.8617,0,36,36,95,1,ci96,liberal,outgroup,individual,cis/liberal - outgroup/base_idNo_809176_autoscaled.jpg,628509244930455cbb7cfd4c,2022-06-14_12h09.19.571,group_task,2020.2.10,Win32,60
,,,,u,0.8659,0,37,37,42,1,ci43,conservative,outgroup,individual,cis/conservative - outgroup/base_idNo_735257_autoscaled.jpg,628509244930455cbb7cfd4c,2022-06-14_12h09.19.571,group_task,2020.2.10,Win32,60
,,,,u,0.859,0,38,38,69,1,ci70,liberal,ingroup,individual,cis/liberal - ingroup/base_idNo_820737_autoscaled.jpg,628509244930455cbb7cfd4c,2022-06-14_12h09.19.571,group_task,2020.2.10,Win32,60
,,,,o,1.476,0,39,39,82,1,ci83,liberal,outgroup,individual,cis/liberal - outgroup/base_idNo_349939_autoscaled.jpg,628509244930455cbb7cfd4c,2022-06-14_12h09.19.571,group_task,2020.2.10,Win32,60
,,,,u,1.4834,0,40,40,86,1,ci87,liberal,outgroup,individual,cis/liberal - outgroup/base_idNo_491143_autoscaled.jpg,628509244930455cbb7cfd4c,2022-06-14_12h09.19.571,group_task,2020.2.10,Win32,60
,,,,o,1.4867,0,41,41,70,1,ci71,liberal,ingroup,individual,cis/liberal - ingroup/base_idNo_856223_autoscaled.jpg,628509244930455cbb7cfd4c,2022-06-14_12h09.19.571,group_task,2020.2.10,Win32,60
,,,,o,1.7696,0,42,42,49,1,ci50,conservative,outgroup,individual,cis/conservative - outgroup/base_idNo_914661_autoscaled.jpg,628509244930455cbb7cfd4c,2022-06-14_12h09.19.571,group_task,2020.2.10,Win32,60
,,,,u,0.876,0,43,43,1,1,ci02,conservative,ingroup,individual,cis/conservative - ingroup/base_idNo_187033_autoscaled.jpg,628509244930455cbb7cfd4c,2022-06-14_12h09.19.571,group_task,2020.2.10,Win32,60
,,,,o,1.6618,0,44,44,30,1,ci31,conservative,outgroup,individual,cis/conservative - outgroup/base_idNo_296889_autoscaled.jpg,628509244930455cbb7cfd4c,2022-06-14_12h09.19.571,group_task,2020.2.10,Win32,60
,,,,u,1.6034,0,45,45,63,1,ci64,liberal,ingroup,individual,cis/liberal - ingroup/base_idNo_583297_autoscaled.jpg,628509244930455cbb7cfd4c,2022-06-14_12h09.19.571,group_task,2020.2.10,Win32,60
,,,,o,1.3483,0,46,46,55,1,ci56,liberal,ingroup,individual,cis/liberal - ingroup/base_idNo_309610_autoscaled.jpg,628509244930455cbb7cfd4c,2022-06-14_12h09.19.571,group_task,2020.2.10,Win32,60
,,,,o,2.4703,0,47,47,16,1,ci17,conservative,ingroup,individual,cis/conservative - ingroup/base_idNo_630658_autoscaled.jpg,628509244930455cbb7cfd4c,2022-06-14_12h09.19.571,group_task,2020.2.10,Win32,60
,,,,o,1.5826,0,48,48,31,1,ci32,conservative,outgroup,individual,cis/conservative - outgroup/base_idNo_311058_autoscaled.jpg,628509244930455cbb7cfd4c,2022-06-14_12h09.19.571,group_task,2020.2.10,Win32,60
,,,,u,1.4293,0,49,49,74,1,ci75,liberal,ingroup,individual,cis/liberal - ingroup/base_idNo_962973_autoscaled.jpg,628509244930455cbb7cfd4c,2022-06-14_12h09.19.571,group_task,2020.2.10,Win32,60
,,,,u,0.7351,0,50,50,51,1,ci52,liberal,ingroup,individual,cis/liberal - ingroup/base_idNo_569ac8_autoscaled.jpg,628509244930455cbb7cfd4c,2022-06-14_12h09.19.571,group_task,2020.2.10,Win32,60
,,,,o,1.2241,0,51,51,10,1,ci11,conservative,ingroup,individual,cis/conservative - ingroup/base_idNo_470750_autoscaled.jpg,628509244930455cbb7cfd4c,2022-06-14_12h09.19.571,group_task,2020.2.10,Win32,60
,,,,u,0.7782,0,52,52,4,1,ci05,conservative,ingroup,individual,cis/conservative - ingroup/base_idNo_224595_autoscaled.jpg,628509244930455cbb7cfd4c,2022-06-14_12h09.19.571,group_task,2020.2.10,Win32,60
,,,,u,1.0384,0,53,53,94,1,ci95,liberal,outgroup,individual,cis/liberal - outgroup/base_idNo_798785_autoscaled.jpg,628509244930455cbb7cfd4c,2022-06-14_12h09.19.571,group_task,2020.2.10,Win32,60
,,,,u,0.7816,0,54,54,102,1,ci103,liberal,outgroup,individual,cis/liberal - outgroup/base_idNo_930308_autoscaled.jpg,628509244930455cbb7cfd4c,2022-06-14_12h09.19.571,group_task,2020.2.10,Win32,60
,,,,u,0.9572,0,55,55,39,1,ci40,conservative,outgroup,individual,cis/conservative - outgroup/base_idNo_643489_autoscaled.jpg,628509244930455cbb7cfd4c,2022-06-14_12h09.19.571,group_task,2020.2.10,Win32,60
,,,,o,1.0918,0,56,56,96,1,ci97,liberal,outgroup,individual,cis/liberal - outgroup/base_idNo_823586_autoscaled.jpg,628509244930455cbb7cfd4c,2022-06-14_12h09.19.571,group_task,2020.2.10,Win32,60
,,,,u,1.2907,0,57,57,13,1,ci14,conservative,ingroup,individual,cis/conservative - ingroup/base_idNo_505940_autoscaled.jpg,628509244930455cbb7cfd4c,2022-06-14_12h09.19.571,group_task,2020.2.10,Win32,60
,,,,u,2.5126,0,58,58,17,1,ci18,conservative,ingroup,individual,cis/conservative - ingroup/base_idNo_688723_autoscaled.jpg,628509244930455cbb7cfd4c,2022-06-14_12h09.19.571,group_task,2020.2.10,Win32,60
,,,,u,1.1748,0,59,59,103,1,ci104,liberal,outgroup,individual,cis/liberal - outgroup/base_idNo_977450_autoscaled.jpg,628509244930455cbb7cfd4c,2022-06-14_12h09.19.571,group_task,2020.2.10,Win32,60
,,,,o,0.7396,0,60,60,38,1,ci39,conservative,outgroup,individual,cis/conservative - outgroup/base_idNo_612237_autoscaled.jpg,628509244930455cbb7cfd4c,2022-06-14_12h09.19.571,group_task,2020.2.10,Win32,60
,,,,o,1.1404,0,61,61,76,1,ci77,liberal,outgroup,individual,cis/liberal - outgroup/base_idNo_135744_autoscaled.jpg,628509244930455cbb7cfd4c,2022-06-14_12h09.19.571,group_task,2020.2.10,Win32,60
,,,,o,0.987,0,62,62,40,1,ci41,conservative,outgroup,individual,cis/conservative - outgroup/base_idNo_656110_autoscaled.jpg,628509244930455cbb7cfd4c,2022-06-14_12h09.19.571,group_task,2020.2.10,Win32,60
,,,,o,0.7778,0,63,63,77,1,ci78,liberal,outgroup,individual,cis/liberal - outgroup/base_idNo_202477_autoscaled.jpg,628509244930455cbb7cfd4c,2022-06-14_12h09.19.571,group_task,2020.2.10,Win32,60
,,,,u,1.2535,0,64,64,56,1,ci57,liberal,ingroup,individual,cis/liberal - ingroup/base_idNo_312500_autoscaled.jpg,628509244930455cbb7cfd4c,2022-06-14_12h09.19.571,group_task,2020.2.10,Win32,60
,,,,u,0.7615,0,65,65,33,1,ci34,conservative,outgroup,individual,cis/conservative - outgroup/base_idNo_394668_autoscaled.jpg,628509244930455cbb7cfd4c,2022-06-14_12h09.19.571,group_task,2020.2.10,Win32,60
,,,,o,1.3664,0,66,66,67,1,ci68,liberal,ingroup,individual,cis/liberal - ingroup/base_idNo_662846_autoscaled.jpg,628509244930455cbb7cfd4c,2022-06-14_12h09.19.571,group_task,2020.2.10,Win32,60
,,,,u,1.4025,0,67,67,90,1,ci91,liberal,outgroup,individual,cis/liberal - outgroup/base_idNo_551334_autoscaled.jpg,628509244930455cbb7cfd4c,2022-06-14_12h09.19.571,group_task,2020.2.10,Win32,60
,,,,u,0.8727,0,68,68,6,1,ci07,conservative,ingroup,individual,cis/conservative - ingroup/base_idNo_312027_autoscaled.jpg,628509244930455cbb7cfd4c,2022-06-14_12h09.19.571,group_task,2020.2.10,Win32,60
,,,,o,1.2628,0,69,69,52,1,ci53,liberal,ingroup,individual,cis/liberal - ingroup/base_idNo_247453_autoscaled.jpg,628509244930455cbb7cfd4c,2022-06-14_12h09.19.571,group_task,2020.2.10,Win32,60
,,,,u,1.6161,0,70,70,71,1,ci72,liberal,ingroup,individual,cis/liberal - ingroup/base_idNo_887954_autoscaled.jpg,628509244930455cbb7cfd4c,2022-06-14_12h09.19.571,group_task,2020.2.10,Win32,60
,,,,o,1.0552,0,71,71,25,1,ci26,conservative,outgroup,individual,cis/conservative - outgroup/base_idNo_126568_autoscaled.jpg,628509244930455cbb7cfd4c,2022-06-14_12h09.19.571,group_task,2020.2.10,Win32,60
,,,,o,1.0963,0,72,72,91,1,ci92,liberal,outgroup,individual,cis/liberal - outgroup/base_idNo_601743_autoscaled.jpg,628509244930455cbb7cfd4c,2022-06-14_12h09.19.571,group_task,2020.2.10,Win32,60
,,,,o,0.6325,0,73,73,81,1,ci82,liberal,outgroup,individual,cis/liberal - outgroup/base_idNo_347579_autoscaled.jpg,628509244930455cbb7cfd4c,2022-06-14_12h09.19.571,group_task,2020.2.10,Win32,60
,,,,o,0.9344,0,74,74,68,1,ci69,liberal,ingroup,individual,cis/liberal - ingroup/base_idNo_806540_autoscaled.jpg,628509244930455cbb7cfd4c,2022-06-14_12h09.19.571,group_task,2020.2.10,Win32,60
,,,,o,1.4652,0,75,75,22,1,ci23,conservative,ingroup,individual,cis/conservative - ingroup/base_idNo_851879_autoscaled.jpg,628509244930455cbb7cfd4c,2022-06-14_12h09.19.571,group_task,2020.2.10,Win32,60
,,,,u,1.5607,0,76,76,9,1,ci10,conservative,ingroup,individual,cis/conservative - ingroup/base_idNo_435390_autoscaled.jpg,628509244930455cbb7cfd4c,2022-06-14_12h09.19.571,group_task,2020.2.10,Win32,60
,,,,u,1.0397,0,77,77,107,1,ci108,liberal,ingroup,group,cis/group level cis/base_group_liberalIngroup_autoscaled.jpg,628509244930455cbb7cfd4c,2022-06-14_12h09.19.571,group_task,2020.2.10,Win32,60
,,,,u,1.3151,0,78,78,15,1,ci16,conservative,ingroup,individual,cis/conservative - ingroup/base_idNo_626058_autoscaled.jpg,628509244930455cbb7cfd4c,2022-06-14_12h09.19.571,group_task,2020.2.10,Win32,60
,,,,o,1.0313,0,79,79,18,1,ci19,conservative,ingroup,individual,cis/conservative - ingroup/base_idNo_691399_autoscaled.jpg,628509244930455cbb7cfd4c,2022-06-14_12h09.19.571,group_task,2020.2.10,Win32,60
,,,,o,0.8417,0,80,80,88,1,ci89,liberal,outgroup,individual,cis/liberal - outgroup/base_idNo_518254_autoscaled.jpg,628509244930455cbb7cfd4c,2022-06-14_12h09.19.571,group_task,2020.2.10,Win32,60
,,,,u,0.9097,0,81,81,19,1,ci20,conservative,ingroup,individual,cis/conservative - ingroup/base_idNo_700600_autoscaled.jpg,628509244930455cbb7cfd4c,2022-06-14_12h09.19.571,group_task,2020.2.10,Win32,60
,,,,o,2.541,0,82,82,99,1,ci100,liberal,outgroup,individual,cis/liberal - outgroup/base_idNo_913688_autoscaled.jpg,628509244930455cbb7cfd4c,2022-06-14_12h09.19.571,group_task,2020.2.10,Win32,60
,,,,o,1.4519,0,83,83,65,1,ci66,liberal,ingroup,individual,cis/liberal - ingroup/base_idNo_644305_autoscaled.jpg,628509244930455cbb7cfd4c,2022-06-14_12h09.19.571,group_task,2020.2.10,Win32,60
,,,,o,0.8784,0,84,84,45,1,ci46,conservative,outgroup,individual,cis/conservative - outgroup/base_idNo_882735_autoscaled.jpg,628509244930455cbb7cfd4c,2022-06-14_12h09.19.571,group_task,2020.2.10,Win32,60
,,,,u,1.4535,0,85,85,60,1,ci61,liberal,ingroup,individual,cis/liberal - ingroup/base_idNo_499872_autoscaled.jpg,628509244930455cbb7cfd4c,2022-06-14_12h09.19.571,group_task,2020.2.10,Win32,60
,,,,u,1.8109,0,86,86,61,1,ci62,liberal,ingroup,individual,cis/liberal - ingroup/base_idNo_537785_autoscaled.jpg,628509244930455cbb7cfd4c,2022-06-14_12h09.19.571,group_task,2020.2.10,Win32,60
,,,,u,0.8596,0,87,87,78,1,ci79,liberal,outgroup,individual,cis/liberal - outgroup/base_idNo_222143_autoscaled.jpg,628509244930455cbb7cfd4c,2022-06-14_12h09.19.571,group_task,2020.2.10,Win32,60
,,,,u,0.9396,0,88,88,5,1,ci06,conservative,ingroup,individual,cis/conservative - ingroup/base_idNo_244753_autoscaled.jpg,628509244930455cbb7cfd4c,2022-06-14_12h09.19.571,group_task,2020.2.10,Win32,60
,,,,o,1.0551,0,89,89,104,1,ci105,liberal,outgroup,individual,cis/liberal - outgroup/base_idNo_997890_autoscaled.jpg,628509244930455cbb7cfd4c,2022-06-14_12h09.19.571,group_task,2020.2.10,Win32,60
,,,,u,1.045,0,90,90,80,1,ci81,liberal,outgroup,individual,cis/liberal - outgroup/base_idNo_318528_autoscaled.jpg,628509244930455cbb7cfd4c,2022-06-14_12h09.19.571,group_task,2020.2.10,Win32,60
,,,,o,1.509,0,91,91,92,1,ci93,liberal,outgroup,individual,cis/liberal - outgroup/base_idNo_691475_autoscaled.jpg,628509244930455cbb7cfd4c,2022-06-14_12h09.19.571,group_task,2020.2.10,Win32,60
,,,,u,1.4509,0,92,92,44,1,ci45,conservative,outgroup,individual,cis/conservative - outgroup/base_idNo_844015_autoscaled.jpg,628509244930455cbb7cfd4c,2022-06-14_12h09.19.571,group_task,2020.2.10,Win32,60
,,,,o,2.5641,0,93,93,48,1,ci49,conservative,outgroup,individual,cis/conservative - outgroup/base_idNo_906661_autoscaled.jpg,628509244930455cbb7cfd4c,2022-06-14_12h09.19.571,group_task,2020.2.10,Win32,60
,,,,o,1.4666,0,94,94,106,1,ci107,conservative,outgroup,group,cis/group level cis/base_group_conservativeOutgroup_autoscaled.jpg,628509244930455cbb7cfd4c,2022-06-14_12h09.19.571,group_task,2020.2.10,Win32,60
,,,,u,1.2342,0,95,95,84,1,ci85,liberal,outgroup,individual,cis/liberal - outgroup/base_idNo_402893_autoscaled.jpg,628509244930455cbb7cfd4c,2022-06-14_12h09.19.571,group_task,2020.2.10,Win32,60
,,,,u,1.4029,0,96,96,29,1,ci30,conservative,outgroup,individual,cis/conservative - outgroup/base_idNo_270729_autoscaled.jpg,628509244930455cbb7cfd4c,2022-06-14_12h09.19.571,group_task,2020.2.10,Win32,60
,,,,u,2.5492,0,97,97,27,1,ci28,conservative,outgroup,individual,cis/conservative - outgroup/base_idNo_184974_autoscaled.jpg,628509244930455cbb7cfd4c,2022-06-14_12h09.19.571,group_task,2020.2.10,Win32,60
,,,,u,1.862,0,98,98,3,1,ci04,conservative,ingroup,individual,cis/conservative - ingroup/base_idNo_215299_autoscaled.jpg,628509244930455cbb7cfd4c,2022-06-14_12h09.19.571,group_task,2020.2.10,Win32,60
,,,,o,1.5869,0,99,99,108,1,ci109,liberal,outgroup,group,cis/group level cis/base_group_liberalOutgroup_autoscaled.jpg,628509244930455cbb7cfd4c,2022-06-14_12h09.19.571,group_task,2020.2.10,Win32,60
,,,,o,1.7125,0,100,100,100,1,ci101,liberal,outgroup,individual,cis/liberal - outgroup/base_idNo_920112_autoscaled.jpg,628509244930455cbb7cfd4c,2022-06-14_12h09.19.571,group_task,2020.2.10,Win32,60
,,,,u,1.1061,0,101,101,58,1,ci59,liberal,ingroup,individual,cis/liberal - ingroup/base_idNo_458729_autoscaled.jpg,628509244930455cbb7cfd4c,2022-06-14_12h09.19.571,group_task,2020.2.10,Win32,60
,,,,u,1.3636,0,102,102,87,1,ci88,liberal,outgroup,individual,cis/liberal - outgroup/base_idNo_506265_autoscaled.jpg,628509244930455cbb7cfd4c,2022-06-14_12h09.19.571,group_task,2020.2.10,Win32,60
,,,,o,0.9833,0,103,103,28,1,ci29,conservative,outgroup,individual,cis/conservative - outgroup/base_idNo_258288_autoscaled.jpg,628509244930455cbb7cfd4c,2022-06-14_12h09.19.571,group_task,2020.2.10,Win32,60
,,,,o,1.3691,0,104,104,26,1,ci27,conservative,outgroup,individual,cis/conservative - outgroup/base_idNo_120204_autoscaled.jpg,628509244930455cbb7cfd4c,2022-06-14_12h09.19.571,group_task,2020.2.10,Win32,60
,,,,o,1.6067,0,105,105,11,1,ci12,conservative,ingroup,individual,cis/conservative - ingroup/base_idNo_481688_autoscaled.jpg,628509244930455cbb7cfd4c,2022-06-14_12h09.19.571,group_task,2020.2.10,Win32,60
,,,,u,1.1108,0,106,106,93,1,ci94,liberal,outgroup,individual,cis/liberal - outgroup/base_idNo_758732_autoscaled.jpg,628509244930455cbb7cfd4c,2022-06-14_12h09.19.571,group_task,2020.2.10,Win32,60
,,,,o,1.9976,0,107,107,32,1,ci33,conservative,outgroup,individual,cis/conservative - outgroup/base_idNo_362980_autoscaled.jpg,628509244930455cbb7cfd4c,2022-06-14_12h09.19.571,group_task,2020.2.10,Win32,60
,,,,o,0.7743,0,108,108,57,1,ci58,liberal,ingroup,individual,cis/liberal - ingroup/base_idNo_457349_autoscaled.jpg,628509244930455cbb7cfd4c,2022-06-14_12h09.19.571,group_task,2020.2.10,Win32,60
