groupKey.keys,groupKey.rt,taskBegin.keys,taskBegin.rt,groupCat.keys,groupCat.rt,trials.thisRepN,trials.thisTrialN,trials.thisN,trials.thisIndex,trials.ran,stimID,participantPol,ciGroup,ciType,imgSrc,ProlificID,date,expName,psychopyVersion,OS,frameRate
u,8.00524,space,6.16013,o,2.377375,0,0,0,13,1,ci14,conservative,ingroup,individual,cis/conservative - ingroup/base_idNo_505940_autoscaled.jpg,55b42b7cfdf99b5244217cf4,2022-06-14_13h37.02.374,group_task,2020.2.10,Linux armv7l,60
,,,,o,1.43105,0,1,1,26,1,ci27,conservative,outgroup,individual,cis/conservative - outgroup/base_idNo_120204_autoscaled.jpg,55b42b7cfdf99b5244217cf4,2022-06-14_13h37.02.374,group_task,2020.2.10,Linux armv7l,60
,,,,u,1.420465,0,2,2,55,1,ci56,liberal,ingroup,individual,cis/liberal - ingroup/base_idNo_309610_autoscaled.jpg,55b42b7cfdf99b5244217cf4,2022-06-14_13h37.02.374,group_task,2020.2.10,Linux armv7l,60
,,,,o,2.139655,0,3,3,105,1,ci106,conservative,ingroup,group,cis/group level cis/base_group_conservativeIngroup_autoscaled.jpg,55b42b7cfdf99b5244217cf4,2022-06-14_13h37.02.374,group_task,2020.2.10,Linux armv7l,60
,,,,u,1.143465,0,4,4,86,1,ci87,liberal,outgroup,individual,cis/liberal - outgroup/base_idNo_491143_autoscaled.jpg,55b42b7cfdf99b5244217cf4,2022-06-14_13h37.02.374,group_task,2020.2.10,Linux armv7l,60
,,,,u,0.99122,0,5,5,70,1,ci71,liberal,ingroup,individual,cis/liberal - ingroup/base_idNo_856223_autoscaled.jpg,55b42b7cfdf99b5244217cf4,2022-06-14_13h37.02.374,group_task,2020.2.10,Linux armv7l,60
,,,,u,1.18204,0,6,6,14,1,ci15,conservative,ingroup,individual,cis/conservative - ingroup/base_idNo_509033_autoscaled.jpg,55b42b7cfdf99b5244217cf4,2022-06-14_13h37.02.374,group_task,2020.2.10,Linux armv7l,60
,,,,u,1.03526,0,7,7,90,1,ci91,liberal,outgroup,individual,cis/liberal - outgroup/base_idNo_551334_autoscaled.jpg,55b42b7cfdf99b5244217cf4,2022-06-14_13h37.02.374,group_task,2020.2.10,Linux armv7l,60
,,,,o,0.98218,0,8,8,66,1,ci67,liberal,ingroup,individual,cis/liberal - ingroup/base_idNo_648338_autoscaled.jpg,55b42b7cfdf99b5244217cf4,2022-06-14_13h37.02.374,group_task,2020.2.10,Linux armv7l,60
,,,,o,0.8941,0,9,9,0,1,ci01,conservative,ingroup,individual,cis/conservative - ingroup/base_idNo_184154_autoscaled.jpg,55b42b7cfdf99b5244217cf4,2022-06-14_13h37.02.374,group_task,2020.2.10,Linux armv7l,60
,,,,o,0.86586,0,10,10,12,1,ci13,conservative,ingroup,individual,cis/conservative - ingroup/base_idNo_495549_autoscaled.jpg,55b42b7cfdf99b5244217cf4,2022-06-14_13h37.02.374,group_task,2020.2.10,Linux armv7l,60
,,,,u,0.77169,0,11,11,68,1,ci69,liberal,ingroup,individual,cis/liberal - ingroup/base_idNo_806540_autoscaled.jpg,55b42b7cfdf99b5244217cf4,2022-06-14_13h37.02.374,group_task,2020.2.10,Linux armv7l,60
,,,,o,2.08551,0,12,12,6,1,ci07,conservative,ingroup,individual,cis/conservative - ingroup/base_idNo_312027_autoscaled.jpg,55b42b7cfdf99b5244217cf4,2022-06-14_13h37.02.374,group_task,2020.2.10,Linux armv7l,60
,,,,u,2.04287,0,13,13,97,1,ci98,liberal,outgroup,individual,cis/liberal - outgroup/base_idNo_845263_autoscaled.jpg,55b42b7cfdf99b5244217cf4,2022-06-14_13h37.02.374,group_task,2020.2.10,Linux armv7l,60
,,,,o,0.83933,0,14,14,1,1,ci02,conservative,ingroup,individual,cis/conservative - ingroup/base_idNo_187033_autoscaled.jpg,55b42b7cfdf99b5244217cf4,2022-06-14_13h37.02.374,group_task,2020.2.10,Linux armv7l,60
,,,,o,0.77448,0,15,15,24,1,ci25,conservative,ingroup,individual,cis/conservative - ingroup/base_idNo_986864_autoscaled.jpg,55b42b7cfdf99b5244217cf4,2022-06-14_13h37.02.374,group_task,2020.2.10,Linux armv7l,60
,,,,u,0.944765,0,16,16,2,1,ci03,conservative,ingroup,individual,cis/conservative - ingroup/base_idNo_196857_autoscaled.jpg,55b42b7cfdf99b5244217cf4,2022-06-14_13h37.02.374,group_task,2020.2.10,Linux armv7l,60
,,,,u,0.95112,0,17,17,82,1,ci83,liberal,outgroup,individual,cis/liberal - outgroup/base_idNo_349939_autoscaled.jpg,55b42b7cfdf99b5244217cf4,2022-06-14_13h37.02.374,group_task,2020.2.10,Linux armv7l,60
,,,,u,0.89552,0,18,18,102,1,ci103,liberal,outgroup,individual,cis/liberal - outgroup/base_idNo_930308_autoscaled.jpg,55b42b7cfdf99b5244217cf4,2022-06-14_13h37.02.374,group_task,2020.2.10,Linux armv7l,60
,,,,u,1.13467,0,19,19,30,1,ci31,conservative,outgroup,individual,cis/conservative - outgroup/base_idNo_296889_autoscaled.jpg,55b42b7cfdf99b5244217cf4,2022-06-14_13h37.02.374,group_task,2020.2.10,Linux armv7l,60
,,,,u,0.782735,0,20,20,80,1,ci81,liberal,outgroup,individual,cis/liberal - outgroup/base_idNo_318528_autoscaled.jpg,55b42b7cfdf99b5244217cf4,2022-06-14_13h37.02.374,group_task,2020.2.10,Linux armv7l,60
,,,,o,0.877015,0,21,21,73,1,ci74,liberal,ingroup,individual,cis/liberal - ingroup/base_idNo_952099_autoscaled.jpg,55b42b7cfdf99b5244217cf4,2022-06-14_13h37.02.374,group_task,2020.2.10,Linux armv7l,60
,,,,o,0.75979,0,22,22,34,1,ci35,conservative,outgroup,individual,cis/conservative - outgroup/base_idNo_426896_autoscaled.jpg,55b42b7cfdf99b5244217cf4,2022-06-14_13h37.02.374,group_task,2020.2.10,Linux armv7l,60
,,,,o,1.011605,0,23,23,39,1,ci40,conservative,outgroup,individual,cis/conservative - outgroup/base_idNo_643489_autoscaled.jpg,55b42b7cfdf99b5244217cf4,2022-06-14_13h37.02.374,group_task,2020.2.10,Linux armv7l,60
,,,,o,0.83457,0,24,24,9,1,ci10,conservative,ingroup,individual,cis/conservative - ingroup/base_idNo_435390_autoscaled.jpg,55b42b7cfdf99b5244217cf4,2022-06-14_13h37.02.374,group_task,2020.2.10,Linux armv7l,60
,,,,o,0.863635,0,25,25,42,1,ci43,conservative,outgroup,individual,cis/conservative - outgroup/base_idNo_735257_autoscaled.jpg,55b42b7cfdf99b5244217cf4,2022-06-14_13h37.02.374,group_task,2020.2.10,Linux armv7l,60
,,,,o,0.89917,0,26,26,64,1,ci65,liberal,ingroup,individual,cis/liberal - ingroup/base_idNo_627839_autoscaled.jpg,55b42b7cfdf99b5244217cf4,2022-06-14_13h37.02.374,group_task,2020.2.10,Linux armv7l,60
,,,,u,0.875215,0,27,27,11,1,ci12,conservative,ingroup,individual,cis/conservative - ingroup/base_idNo_481688_autoscaled.jpg,55b42b7cfdf99b5244217cf4,2022-06-14_13h37.02.374,group_task,2020.2.10,Linux armv7l,60
,,,,u,0.525535,0,28,28,99,1,ci100,liberal,outgroup,individual,cis/liberal - outgroup/base_idNo_913688_autoscaled.jpg,55b42b7cfdf99b5244217cf4,2022-06-14_13h37.02.374,group_task,2020.2.10,Linux armv7l,60
,,,,u,0.50596,0,29,29,22,1,ci23,conservative,ingroup,individual,cis/conservative - ingroup/base_idNo_851879_autoscaled.jpg,55b42b7cfdf99b5244217cf4,2022-06-14_13h37.02.374,group_task,2020.2.10,Linux armv7l,60
,,,,u,0.425105,0,30,30,48,1,ci49,conservative,outgroup,individual,cis/conservative - outgroup/base_idNo_906661_autoscaled.jpg,55b42b7cfdf99b5244217cf4,2022-06-14_13h37.02.374,group_task,2020.2.10,Linux armv7l,60
,,,,u,0.564845,0,31,31,17,1,ci18,conservative,ingroup,individual,cis/conservative - ingroup/base_idNo_688723_autoscaled.jpg,55b42b7cfdf99b5244217cf4,2022-06-14_13h37.02.374,group_task,2020.2.10,Linux armv7l,60
,,,,u,0.616065,0,32,32,15,1,ci16,conservative,ingroup,individual,cis/conservative - ingroup/base_idNo_626058_autoscaled.jpg,55b42b7cfdf99b5244217cf4,2022-06-14_13h37.02.374,group_task,2020.2.10,Linux armv7l,60
,,,,u,0.49863,0,33,33,20,1,ci21,conservative,ingroup,individual,cis/conservative - ingroup/base_idNo_746809_autoscaled.jpg,55b42b7cfdf99b5244217cf4,2022-06-14_13h37.02.374,group_task,2020.2.10,Linux armv7l,60
,,,,u,0.53369,0,34,34,46,1,ci47,conservative,outgroup,individual,cis/conservative - outgroup/base_idNo_899909_autoscaled.jpg,55b42b7cfdf99b5244217cf4,2022-06-14_13h37.02.374,group_task,2020.2.10,Linux armv7l,60
,,,,u,0.587625,0,35,35,100,1,ci101,liberal,outgroup,individual,cis/liberal - outgroup/base_idNo_920112_autoscaled.jpg,55b42b7cfdf99b5244217cf4,2022-06-14_13h37.02.374,group_task,2020.2.10,Linux armv7l,60
,,,,o,0.4942,0,36,36,106,1,ci107,conservative,outgroup,group,cis/group level cis/base_group_conservativeOutgroup_autoscaled.jpg,55b42b7cfdf99b5244217cf4,2022-06-14_13h37.02.374,group_task,2020.2.10,Linux armv7l,60
,,,,u,0.90052,0,37,37,87,1,ci88,liberal,outgroup,individual,cis/liberal - outgroup/base_idNo_506265_autoscaled.jpg,55b42b7cfdf99b5244217cf4,2022-06-14_13h37.02.374,group_task,2020.2.10,Linux armv7l,60
,,,,u,0.71891,0,38,38,69,1,ci70,liberal,ingroup,individual,cis/liberal - ingroup/base_idNo_820737_autoscaled.jpg,55b42b7cfdf99b5244217cf4,2022-06-14_13h37.02.374,group_task,2020.2.10,Linux armv7l,60
,,,,u,0.904435,0,39,39,35,1,ci36,conservative,outgroup,individual,cis/conservative - outgroup/base_idNo_526540_autoscaled.jpg,55b42b7cfdf99b5244217cf4,2022-06-14_13h37.02.374,group_task,2020.2.10,Linux armv7l,60
,,,,u,0.710035,0,40,40,53,1,ci54,liberal,ingroup,individual,cis/liberal - ingroup/base_idNo_283998_autoscaled.jpg,55b42b7cfdf99b5244217cf4,2022-06-14_13h37.02.374,group_task,2020.2.10,Linux armv7l,60
,,,,u,0.879185,0,41,41,3,1,ci04,conservative,ingroup,individual,cis/conservative - ingroup/base_idNo_215299_autoscaled.jpg,55b42b7cfdf99b5244217cf4,2022-06-14_13h37.02.374,group_task,2020.2.10,Linux armv7l,60
,,,,u,0.870605,0,42,42,28,1,ci29,conservative,outgroup,individual,cis/conservative - outgroup/base_idNo_258288_autoscaled.jpg,55b42b7cfdf99b5244217cf4,2022-06-14_13h37.02.374,group_task,2020.2.10,Linux armv7l,60
,,,,o,0.834365,0,43,43,21,1,ci22,conservative,ingroup,individual,cis/conservative - ingroup/base_idNo_791214_autoscaled.jpg,55b42b7cfdf99b5244217cf4,2022-06-14_13h37.02.374,group_task,2020.2.10,Linux armv7l,60
,,,,o,0.61002,0,44,44,60,1,ci61,liberal,ingroup,individual,cis/liberal - ingroup/base_idNo_499872_autoscaled.jpg,55b42b7cfdf99b5244217cf4,2022-06-14_13h37.02.374,group_task,2020.2.10,Linux armv7l,60
,,,,u,0.91485,0,45,45,7,1,ci08,conservative,ingroup,individual,cis/conservative - ingroup/base_idNo_384630_autoscaled.jpg,55b42b7cfdf99b5244217cf4,2022-06-14_13h37.02.374,group_task,2020.2.10,Linux armv7l,60
,,,,o,0.88385,0,46,46,89,1,ci90,liberal,outgroup,individual,cis/liberal - outgroup/base_idNo_535284_autoscaled.jpg,55b42b7cfdf99b5244217cf4,2022-06-14_13h37.02.374,group_task,2020.2.10,Linux armv7l,60
,,,,o,1.19813,0,47,47,18,1,ci19,conservative,ingroup,individual,cis/conservative - ingroup/base_idNo_691399_autoscaled.jpg,55b42b7cfdf99b5244217cf4,2022-06-14_13h37.02.374,group_task,2020.2.10,Linux armv7l,60
,,,,u,1.28201,0,48,48,103,1,ci104,liberal,outgroup,individual,cis/liberal - outgroup/base_idNo_977450_autoscaled.jpg,55b42b7cfdf99b5244217cf4,2022-06-14_13h37.02.374,group_task,2020.2.10,Linux armv7l,60
,,,,o,0.844185,0,49,49,65,1,ci66,liberal,ingroup,individual,cis/liberal - ingroup/base_idNo_644305_autoscaled.jpg,55b42b7cfdf99b5244217cf4,2022-06-14_13h37.02.374,group_task,2020.2.10,Linux armv7l,60
,,,,u,1.74196,0,50,50,81,1,ci82,liberal,outgroup,individual,cis/liberal - outgroup/base_idNo_347579_autoscaled.jpg,55b42b7cfdf99b5244217cf4,2022-06-14_13h37.02.374,group_task,2020.2.10,Linux armv7l,60
,,,,o,0.80484,0,51,51,72,1,ci73,liberal,ingroup,individual,cis/liberal - ingroup/base_idNo_929772_autoscaled.jpg,55b42b7cfdf99b5244217cf4,2022-06-14_13h37.02.374,group_task,2020.2.10,Linux armv7l,60
,,,,o,0.715425,0,52,52,79,1,ci80,liberal,outgroup,individual,cis/liberal - outgroup/base_idNo_316191_autoscaled.jpg,55b42b7cfdf99b5244217cf4,2022-06-14_13h37.02.374,group_task,2020.2.10,Linux armv7l,60
,,,,u,1.418505,0,53,53,31,1,ci32,conservative,outgroup,individual,cis/conservative - outgroup/base_idNo_311058_autoscaled.jpg,55b42b7cfdf99b5244217cf4,2022-06-14_13h37.02.374,group_task,2020.2.10,Linux armv7l,60
,,,,o,0.74597,0,54,54,25,1,ci26,conservative,outgroup,individual,cis/conservative - outgroup/base_idNo_126568_autoscaled.jpg,55b42b7cfdf99b5244217cf4,2022-06-14_13h37.02.374,group_task,2020.2.10,Linux armv7l,60
,,,,o,0.559245,0,55,55,19,1,ci20,conservative,ingroup,individual,cis/conservative - ingroup/base_idNo_700600_autoscaled.jpg,55b42b7cfdf99b5244217cf4,2022-06-14_13h37.02.374,group_task,2020.2.10,Linux armv7l,60
,,,,o,2.09565,0,56,56,61,1,ci62,liberal,ingroup,individual,cis/liberal - ingroup/base_idNo_537785_autoscaled.jpg,55b42b7cfdf99b5244217cf4,2022-06-14_13h37.02.374,group_task,2020.2.10,Linux armv7l,60
,,,,u,0.79162,0,57,57,108,1,ci109,liberal,outgroup,group,cis/group level cis/base_group_liberalOutgroup_autoscaled.jpg,55b42b7cfdf99b5244217cf4,2022-06-14_13h37.02.374,group_task,2020.2.10,Linux armv7l,60
,,,,o,1.0106,0,58,58,57,1,ci58,liberal,ingroup,individual,cis/liberal - ingroup/base_idNo_457349_autoscaled.jpg,55b42b7cfdf99b5244217cf4,2022-06-14_13h37.02.374,group_task,2020.2.10,Linux armv7l,60
,,,,u,0.952825,0,59,59,38,1,ci39,conservative,outgroup,individual,cis/conservative - outgroup/base_idNo_612237_autoscaled.jpg,55b42b7cfdf99b5244217cf4,2022-06-14_13h37.02.374,group_task,2020.2.10,Linux armv7l,60
,,,,u,1.867295,0,60,60,85,1,ci86,liberal,outgroup,individual,cis/liberal - outgroup/base_idNo_462266_autoscaled.jpg,55b42b7cfdf99b5244217cf4,2022-06-14_13h37.02.374,group_task,2020.2.10,Linux armv7l,60
,,,,u,0.86364,0,61,61,56,1,ci57,liberal,ingroup,individual,cis/liberal - ingroup/base_idNo_312500_autoscaled.jpg,55b42b7cfdf99b5244217cf4,2022-06-14_13h37.02.374,group_task,2020.2.10,Linux armv7l,60
,,,,u,1.46831,0,62,62,49,1,ci50,conservative,outgroup,individual,cis/conservative - outgroup/base_idNo_914661_autoscaled.jpg,55b42b7cfdf99b5244217cf4,2022-06-14_13h37.02.374,group_task,2020.2.10,Linux armv7l,60
,,,,o,0.82516,0,63,63,5,1,ci06,conservative,ingroup,individual,cis/conservative - ingroup/base_idNo_244753_autoscaled.jpg,55b42b7cfdf99b5244217cf4,2022-06-14_13h37.02.374,group_task,2020.2.10,Linux armv7l,60
,,,,o,0.76527,0,64,64,27,1,ci28,conservative,outgroup,individual,cis/conservative - outgroup/base_idNo_184974_autoscaled.jpg,55b42b7cfdf99b5244217cf4,2022-06-14_13h37.02.374,group_task,2020.2.10,Linux armv7l,60
,,,,u,1.46421,0,65,65,54,1,ci55,liberal,ingroup,individual,cis/liberal - ingroup/base_idNo_293475_autoscaled.jpg,55b42b7cfdf99b5244217cf4,2022-06-14_13h37.02.374,group_task,2020.2.10,Linux armv7l,60
,,,,u,0.83372,0,66,66,33,1,ci34,conservative,outgroup,individual,cis/conservative - outgroup/base_idNo_394668_autoscaled.jpg,55b42b7cfdf99b5244217cf4,2022-06-14_13h37.02.374,group_task,2020.2.10,Linux armv7l,60
,,,,o,0.61434,0,67,67,47,1,ci48,conservative,outgroup,individual,cis/conservative - outgroup/base_idNo_901185_autoscaled.jpg,55b42b7cfdf99b5244217cf4,2022-06-14_13h37.02.374,group_task,2020.2.10,Linux armv7l,60
,,,,o,0.32641,0,68,68,84,1,ci85,liberal,outgroup,individual,cis/liberal - outgroup/base_idNo_402893_autoscaled.jpg,55b42b7cfdf99b5244217cf4,2022-06-14_13h37.02.374,group_task,2020.2.10,Linux armv7l,60
,,,,u,0.563855,0,69,69,51,1,ci52,liberal,ingroup,individual,cis/liberal - ingroup/base_idNo_569ac8_autoscaled.jpg,55b42b7cfdf99b5244217cf4,2022-06-14_13h37.02.374,group_task,2020.2.10,Linux armv7l,60
,,,,u,0.32683,0,70,70,36,1,ci37,conservative,outgroup,individual,cis/conservative - outgroup/base_idNo_559539_autoscaled.jpg,55b42b7cfdf99b5244217cf4,2022-06-14_13h37.02.374,group_task,2020.2.10,Linux armv7l,60
,,,,u,0.539885,0,71,71,59,1,ci60,liberal,ingroup,individual,cis/liberal - ingroup/base_idNo_488856_autoscaled.jpg,55b42b7cfdf99b5244217cf4,2022-06-14_13h37.02.374,group_task,2020.2.10,Linux armv7l,60
,,,,u,0.55664,0,72,72,88,1,ci89,liberal,outgroup,individual,cis/liberal - outgroup/base_idNo_518254_autoscaled.jpg,55b42b7cfdf99b5244217cf4,2022-06-14_13h37.02.374,group_task,2020.2.10,Linux armv7l,60
,,,,u,0.865755,0,73,73,41,1,ci42,conservative,outgroup,individual,cis/conservative - outgroup/base_idNo_706497_autoscaled.jpg,55b42b7cfdf99b5244217cf4,2022-06-14_13h37.02.374,group_task,2020.2.10,Linux armv7l,60
,,,,u,22.45401,0,74,74,58,1,ci59,liberal,ingroup,individual,cis/liberal - ingroup/base_idNo_458729_autoscaled.jpg,55b42b7cfdf99b5244217cf4,2022-06-14_13h37.02.374,group_task,2020.2.10,Linux armv7l,60
